File: data/TE_survey_csv_repaired.csv
T (K),Z*10^-4 reported,Resist. (Ohm.cm),Seebeck (uV/K),kappaZT,,Resist. (400K),Seebeck (400K),Pf (W/K^2/m),ZT,kappa (W/mK),x,Formula,series,T Max,family,,,Conduct. (S/cm),,Power Factor*T (W/mK),preparative route,final form,Authors,DOI,Comments,Comments,Cell Volume (A^3),Formula Units per Cell,Atoms per formula unit,total atoms per unit cell,average atomic volume,Author of Unit Cell,Unit Cell DOI,ICSD of structure,temp of ICSD (K),S^2,ke/ktotal,space group,# symmetry elements
,,,,,,,,,,,,,,,,,,,,,,,,,,,,,,,,,,,,,,,
300,,50,-462.97,1.29E-04,1,50,-462.97,4.29E-07,,,0,CaMnO3,Ca1-xLaxMnO3,,CaMnO3,,,2.00E-02,,1.29E-04,Solid state reaction,polycrystalline,Lan2009JMST,http://www.jmst.org/EN/Y2009/V25/I04/0535,,,206.97,4,5,20,10.3485,Poeppelmeier,http://dx.doi.org/10.1016/0022-4596(82)90292-4,35218,300,2.14E+05,,62,8
400,,50,-462.97,1.71E-04,1,50,-462.97,4.29E-07,,,0,CaMnO3,Ca1-xLaxMnO3,,CaMnO3,,,2.00E-02,,1.71E-04,Solid state reaction,polycrystalline,Lan2009JMST,http://www.jmst.org/EN/Y2009/V25/I04/0535,,,206.97,4,5,20,10.3485,Poeppelmeier,http://dx.doi.org/10.1016/0022-4596(82)90292-4,35218,300,2.14E+05,,62,8
700,,2.41749,-470.65,6.41E-03,1,50,-462.97,9.16E-06,,,0,CaMnO3,Ca1-xLaxMnO3,,CaMnO3,,,4.14E-01,,6.41E-03,Solid state reaction,polycrystalline,Lan2009JMST,http://www.jmst.org/EN/Y2009/V25/I04/0535,,,206.97,4,5,20,10.3485,Poeppelmeier,http://dx.doi.org/10.1016/0022-4596(82)90292-4,35218,300,2.22E+05,,62,8
1000,,0.17749,-279.83,4.41E-02,1,50,-462.97,4.41E-05,,,0,CaMnO3,Ca1-xLaxMnO3,,CaMnO3,,,5.63E+00,,4.41E-02,Solid state reaction,polycrystalline,Lan2009JMST,http://www.jmst.org/EN/Y2009/V25/I04/0535,,,206.97,4,5,20,10.3485,Poeppelmeier,http://dx.doi.org/10.1016/0022-4596(82)90292-4,35218,300,7.83E+04,,62,8
300,,0.0461146,-201.71,2.65E-02,1,0.046115,-201.71,8.82E-05,,,0.02,Ca0.98La0.02MnO3,Ca1-xLaxMnO3,,CaMnO3,,,2.17E+01,,2.65E-02,Solid state reaction,polycrystalline,Lan2009JMST,http://www.jmst.org/EN/Y2009/V25/I04/0535,,,207.74,4,5,20,10.387,Taguchi,http://dx.doi.org/10.1006/jssc.1996.0250,82210,300,4.07E+04,,62,8
400,,0.0461146,-201.71,3.53E-02,1,0.046115,-201.71,8.82E-05,,,0.02,Ca0.98La0.02MnO3,Ca1-xLaxMnO3,,CaMnO3,,,2.17E+01,,3.53E-02,Solid state reaction,polycrystalline,Lan2009JMST,http://www.jmst.org/EN/Y2009/V25/I04/0535,,,207.74,4,5,20,10.387,Taguchi,http://dx.doi.org/10.1006/jssc.1996.0250,82210,300,4.07E+04,,62,8
700,,0.0650491,-224.12,5.41E-02,1,0.046115,-201.71,7.72E-05,,,0.02,Ca0.98La0.02MnO3,Ca1-xLaxMnO3,,CaMnO3,,,1.54E+01,,5.41E-02,Solid state reaction,polycrystalline,Lan2009JMST,http://www.jmst.org/EN/Y2009/V25/I04/0535,,,207.74,4,5,20,10.387,Taguchi,http://dx.doi.org/10.1006/jssc.1996.0250,82210,300,5.02E+04,,62,8
1000,,0.0410845,-190.18,8.80E-02,1,0.046115,-201.71,8.80E-05,,,0.02,Ca0.98La0.02MnO3,Ca1-xLaxMnO3,,CaMnO3,,,2.43E+01,,8.80E-02,Solid state reaction,polycrystalline,Lan2009JMST,http://www.jmst.org/EN/Y2009/V25/I04/0535,,,207.74,4,5,20,10.387,Taguchi,http://dx.doi.org/10.1006/jssc.1996.0250,82210,300,3.62E+04,,62,8
300,,0.0152555,-123.59,3.00E-02,1,0.015256,-123.59,1.00E-04,,,0.04,Ca0.96La0.04MnO3,Ca1-xLaxMnO3,,CaMnO3,,,6.56E+01,,3.00E-02,Solid state reaction,polycrystalline,Lan2009JMST,http://www.jmst.org/EN/Y2009/V25/I04/0535,,,208.49,4,5,20,10.4245,Taguchi,http://dx.doi.org/10.1006/jssc.1996.0250,82209,300,1.53E+04,,62,8
400,,0.0152555,-123.59,4.00E-02,1,0.015256,-123.59,1.00E-04,,,0.04,Ca0.96La0.04MnO3,Ca1-xLaxMnO3,,CaMnO3,,,6.56E+01,,4.00E-02,Solid state reaction,polycrystalline,Lan2009JMST,http://www.jmst.org/EN/Y2009/V25/I04/0535,,,208.49,4,5,20,10.4245,Taguchi,http://dx.doi.org/10.1006/jssc.1996.0250,82209,300,1.53E+04,,62,8
700,,0.02167829,-173.53,9.72E-02,1,0.015256,-123.59,1.39E-04,,,0.04,Ca0.96La0.04MnO3,Ca1-xLaxMnO3,,CaMnO3,,,4.61E+01,,9.72E-02,Solid state reaction,polycrystalline,Lan2009JMST,http://www.jmst.org/EN/Y2009/V25/I04/0535,,,208.49,4,5,20,10.4245,Taguchi,http://dx.doi.org/10.1006/jssc.1996.0250,82209,300,3.01E+04,,62,8
1000,,0.0222162,-160.09,1.15E-01,1,0.015256,-123.59,1.15E-04,,,0.04,Ca0.96La0.04MnO3,Ca1-xLaxMnO3,,CaMnO3,,,4.50E+01,,1.15E-01,Solid state reaction,polycrystalline,Lan2009JMST,http://www.jmst.org/EN/Y2009/V25/I04/0535,,,208.49,4,5,20,10.4245,Taguchi,http://dx.doi.org/10.1006/jssc.1996.0250,82209,300,2.56E+04,,62,8
300,,0.0121671,-103.74,2.65E-02,1,0.012167,-103.74,8.84E-05,,,0.06,Ca0.94La0.06MnO3,Ca1-xLaxMnO3,,CaMnO3,,,8.22E+01,,2.65E-02,Solid state reaction,polycrystalline,Lan2009JMST,http://www.jmst.org/EN/Y2009/V25/I04/0535,,,209.24,4,5,20,10.462,Taguchi,http://dx.doi.org/10.1006/jssc.1996.0250,82208,300,1.08E+04,,62,8
400,,0.0121671,-103.74,3.54E-02,1,0.012167,-103.74,8.84E-05,,,0.06,Ca0.94La0.06MnO3,Ca1-xLaxMnO3,,CaMnO3,,,8.22E+01,,3.54E-02,Solid state reaction,polycrystalline,Lan2009JMST,http://www.jmst.org/EN/Y2009/V25/I04/0535,,,209.24,4,5,20,10.462,Taguchi,http://dx.doi.org/10.1006/jssc.1996.0250,82208,300,1.08E+04,,62,8
700,,0.0170259,-127.43,6.68E-02,1,0.012167,-103.74,9.54E-05,,,0.06,Ca0.94La0.06MnO3,Ca1-xLaxMnO3,,CaMnO3,,,5.87E+01,,6.68E-02,Solid state reaction,polycrystalline,Lan2009JMST,http://www.jmst.org/EN/Y2009/V25/I04/0535,,,209.24,4,5,20,10.462,Taguchi,http://dx.doi.org/10.1006/jssc.1996.0250,82208,300,1.62E+04,,62,8
1000,,0.0188397,-135.75,9.78E-02,1,0.012167,-103.74,9.78E-05,,,0.06,Ca0.94La0.06MnO3,Ca1-xLaxMnO3,,CaMnO3,,,5.31E+01,,9.78E-02,Solid state reaction,polycrystalline,Lan2009JMST,http://www.jmst.org/EN/Y2009/V25/I04/0535,,,209.24,4,5,20,10.462,Taguchi,http://dx.doi.org/10.1006/jssc.1996.0250,82208,300,1.84E+04,,62,8
300,,0.009966115,-83.24,2.09E-02,1,0.009966,-83.24,6.95E-05,,,0.08,Ca0.92La0.08MnO3,Ca1-xLaxMnO3,,CaMnO3,,,1.00E+02,,2.09E-02,Solid state reaction,polycrystalline,Lan2009JMST,http://www.jmst.org/EN/Y2009/V25/I04/0535,,,209.93,4,5,20,10.4965,Taguchi,http://dx.doi.org/10.1006/jssc.1996.0250,82207,300,6.93E+03,,62,8
400,,0.009966115,-83.24,2.78E-02,1,0.009966,-83.24,6.95E-05,,,0.08,Ca0.92La0.08MnO3,Ca1-xLaxMnO3,,CaMnO3,,,1.00E+02,,2.78E-02,Solid state reaction,polycrystalline,Lan2009JMST,http://www.jmst.org/EN/Y2009/V25/I04/0535,,,209.93,4,5,20,10.4965,Taguchi,http://dx.doi.org/10.1006/jssc.1996.0250,82207,300,6.93E+03,,62,8
700,,0.0136322,-118.46,7.21E-02,1,0.009966,-83.24,1.03E-04,,,0.08,Ca0.92La0.08MnO3,Ca1-xLaxMnO3,,CaMnO3,,,7.34E+01,,7.21E-02,Solid state reaction,polycrystalline,Lan2009JMST,http://www.jmst.org/EN/Y2009/V25/I04/0535,,,209.93,4,5,20,10.4965,Taguchi,http://dx.doi.org/10.1006/jssc.1996.0250,82207,300,1.40E+04,,62,8
1000,,0.0157066,-140.88,1.26E-01,1,0.009966,-83.24,1.26E-04,,,0.08,Ca0.92La0.08MnO3,Ca1-xLaxMnO3,,CaMnO3,,,6.37E+01,,1.26E-01,Solid state reaction,polycrystalline,Lan2009JMST,http://www.jmst.org/EN/Y2009/V25/I04/0535,,,209.93,4,5,20,10.4965,Taguchi,http://dx.doi.org/10.1006/jssc.1996.0250,82207,300,1.98E+04,,62,8
700,,152.929,483.47,1.07E-04,4,,,1.53E-07,,,0,NiO,LixNi1-xO,,NiO,,,6.54E-03,,1.07E-04,Solid state reaction,polycrystalline,Shin1999JJAPP2,http://dx.doi.org/10.1143/JJAP.38.L1336,,,72.93,4,2,8,9.11625,Sasaki,http://dx.doi.org/10.2183/pjab.55.43,9866,300,2.34E+05,,225,192
1000,,14.6476,642.62,2.82E-03,4,,,2.82E-06,,,0,NiO,LixNi1-xO,,NiO,,,6.83E-02,,2.82E-03,Solid state reaction,polycrystalline,Shin1999JJAPP2,http://dx.doi.org/10.1143/JJAP.38.L1336,,,72.93,4,2,8,9.11625,Sasaki,http://dx.doi.org/10.2183/pjab.55.43,9866,300,4.13E+05,,225,192
400,,28.8677,294.97,1.21E-04,4,28.8677,294.97,3.01E-07,7.46E-06,16.1715,0.0024,Li0.0024Ni0.9976O,LixNi1-xO,,NiO,,,3.46E-02,,1.21E-04,Solid state reaction,polycrystalline,Shin1999JJAPP2,http://dx.doi.org/10.1143/JJAP.38.L1336,,Data at 460 K,72.93,4,2,8,9.11625,Sasaki,http://dx.doi.org/10.2183/pjab.55.43,9866,300,8.70E+04,2.09E-06,225,192
700,,0.262887,249.75,1.66E-02,4,28.8677,294.97,2.37E-05,0.001458067,11.391,0.0024,Li0.0024Ni0.9976O,LixNi1-xO,,NiO,,,3.80E+00,,1.66E-02,Solid state reaction,polycrystalline,Shin1999JJAPP2,http://dx.doi.org/10.1143/JJAP.38.L1336,,,72.93,4,2,8,9.11625,Sasaki,http://dx.doi.org/10.2183/pjab.55.43,9866,300,6.24E+04,0.000570369,225,192
1000,,0.0466044,262.41,1.48E-01,4,28.8677,294.97,1.48E-04,0.0174976,8.44401,0.0024,Li0.0024Ni0.9976O,LixNi1-xO,,NiO,,,2.15E+01,,1.48E-01,Solid state reaction,polycrystalline,Shin1999JJAPP2,http://dx.doi.org/10.1143/JJAP.38.L1336,,,72.93,4,2,8,9.11625,Sasaki,http://dx.doi.org/10.2183/pjab.55.43,9866,300,6.89E+04,0.00620032,225,192
400,,5.08647,249.37,4.89E-04,4,5.08647,249.37,1.22E-06,5.87E-05,8.32761,0.0066,Li0.0066Ni0.9944O,LixNi1-xO,,NiO,,,1.97E-01,,4.89E-04,Solid state reaction,polycrystalline,Shin1999JJAPP2,http://dx.doi.org/10.1143/JJAP.38.L1336,,Data at 460 K,72.93,4,2,8,9.11625,Sasaki,http://dx.doi.org/10.2183/pjab.55.43,9866,300,6.22E+04,2.30E-05,225,192
700,,0.0316209,200.39,8.89E-02,4,5.08647,249.37,1.27E-04,0.0147901,6.0105,0.0066,Li0.0066Ni0.9944O,LixNi1-xO,,NiO,,,3.16E+01,,8.89E-02,Solid state reaction,polycrystalline,Shin1999JJAPP2,http://dx.doi.org/10.1143/JJAP.38.L1336,,,72.93,4,2,8,9.11625,Sasaki,http://dx.doi.org/10.2183/pjab.55.43,9866,300,4.02E+04,0.008986771,225,192
1000,,0.0284784,206.66,1.50E-01,4,5.08647,249.37,1.50E-04,0.02826674,5.30518,0.0066,Li0.0066Ni0.9944O,LixNi1-xO,,NiO,,,3.51E+01,,1.50E-01,Solid state reaction,polycrystalline,Shin1999JJAPP2,http://dx.doi.org/10.1143/JJAP.38.L1336,,,72.93,4,2,8,9.11625,Sasaki,http://dx.doi.org/10.2183/pjab.55.43,9866,300,4.27E+04,0.01615,225,192
400,,0.0642723,116.91,8.51E-03,4,0.064272,116.91,2.13E-05,,,0.0184,Li0.0184Ni0.9816O,LixNi1-xO,,NiO,,,1.56E+01,,8.51E-03,Solid state reaction,polycrystalline,Shin1999JJAPP2,http://dx.doi.org/10.1143/JJAP.38.L1336,,Data at 460 K,72.93,4,2,8,9.11625,Sasaki,http://dx.doi.org/10.2183/pjab.55.43,9866,300,1.37E+04,,225,192
700,,0.0198049,97.88,3.39E-02,4,0.064272,116.91,4.84E-05,,,0.0184,Li0.0184Ni0.9816O,LixNi1-xO,,NiO,,,5.05E+01,,3.39E-02,Solid state reaction,polycrystalline,Shin1999JJAPP2,http://dx.doi.org/10.1143/JJAP.38.L1336,,,72.93,4,2,8,9.11625,Sasaki,http://dx.doi.org/10.2183/pjab.55.43,9866,300,9.58E+03,,225,192
1000,,0.006660716,105.17,1.66E-01,4,0.064272,116.91,1.66E-04,,,0.0184,Li0.0184Ni0.9816O,LixNi1-xO,,NiO,,,1.50E+02,,1.66E-01,Solid state reaction,polycrystalline,Shin1999JJAPP2,http://dx.doi.org/10.1143/JJAP.38.L1336,,,72.93,4,2,8,9.11625,Sasaki,http://dx.doi.org/10.2183/pjab.55.43,9866,300,1.11E+04,,225,192
400,,0.0123433,102.59,3.41E-02,4,0.012343,102.59,8.53E-05,0.009093419,3.75078,0.0242,Li0.0242Ni0.9758O,LixNi1-xO,,NiO,,,8.10E+01,,3.41E-02,Solid state reaction,polycrystalline,Shin1999JJAPP2,http://dx.doi.org/10.1143/JJAP.38.L1336,,Data at 460 K,72.93,4,2,8,9.11625,Sasaki,http://dx.doi.org/10.2183/pjab.55.43,9866,300,1.05E+04,0.0210814,225,192
700,,0.004865541,77.37,8.61E-02,4,0.012343,102.59,1.23E-04,0.0246366,3.49599,0.0242,Li0.0242Ni0.9758O,LixNi1-xO,,NiO,,,2.06E+02,,8.61E-02,Solid state reaction,polycrystalline,Shin1999JJAPP2,http://dx.doi.org/10.1143/JJAP.38.L1336,,,72.93,4,2,8,9.11625,Sasaki,http://dx.doi.org/10.2183/pjab.55.43,9866,300,5.99E+03,0.100412,225,192
1000,,0.003874392,79.49,1.63E-01,4,0.012343,102.59,1.63E-04,0.063969,2.54979,0.0242,Li0.0242Ni0.9758O,LixNi1-xO,,NiO,,,2.58E+02,,1.63E-01,Solid state reaction,polycrystalline,Shin1999JJAPP2,http://dx.doi.org/10.1143/JJAP.38.L1336,,,72.93,4,2,8,9.11625,Sasaki,http://dx.doi.org/10.2183/pjab.55.43,9866,300,6.32E+03,0.246991,225,192
300,,5.0076,-572.04,1.96E-03,1,2.925075,-549.12,6.53E-06,,,0,CaMnO3,Ca1-xBixMn1-yNbyO3,,CaMnO3,,,2.00E-01,,1.96E-03,Solid state reaction,polycrystalline,Park2009JAC,http://dx.doi.org/10.1016/j.jallcom.2009.08.012,x=y,Extrapolated from 325 K,206.97,4,5,20,10.3485,Poeppelmeier,http://dx.doi.org/10.1016/0022-4596(82)90292-4,35218,300,3.27E+05,,62,8
400,,2.92507,-549.12,4.12E-03,1,2.925075,-549.12,1.03E-05,0.001247231,3.30607,0,CaMnO3,Ca1-xBixMn1-yNbyO3,,CaMnO3,,,3.42E-01,,4.12E-03,Solid state reaction,polycrystalline,Park2009JAC,http://dx.doi.org/10.1016/j.jallcom.2009.08.012,x=y,,206.97,4,5,20,10.3485,Poeppelmeier,http://dx.doi.org/10.1016/0022-4596(82)90292-4,35218,300,3.02E+05,0.000100925,62,8
700,,0.643244,-477.48,2.48E-02,1,2.925075,-549.12,3.54E-05,0.012122,2.04673,0,CaMnO3,Ca1-xBixMn1-yNbyO3,,CaMnO3,,,1.55E+00,,2.48E-02,Solid state reaction,polycrystalline,Park2009JAC,http://dx.doi.org/10.1016/j.jallcom.2009.08.012,x=y,,206.97,4,5,20,10.3485,Poeppelmeier,http://dx.doi.org/10.1016/0022-4596(82)90292-4,35218,300,2.28E+05,0.001297333,62,8
1000,,0.110571,-406.81,1.50E-01,1,2.925075,-549.12,1.50E-04,0.0891588,1.67874,0,CaMnO3,Ca1-xBixMn1-yNbyO3,,CaMnO3,,,9.04E+00,,1.50E-01,Solid state reaction,polycrystalline,Park2009JAC,http://dx.doi.org/10.1016/j.jallcom.2009.08.012,x=y,Extrapolated from 972 K,206.97,4,5,20,10.3485,Poeppelmeier,http://dx.doi.org/10.1016/0022-4596(82)90292-4,35218,300,1.66E+05,0.0131451,62,8
300,,0.02032591,-100.04,1.48E-02,1,0.021537,-119.21,4.92E-05,0.005877928,2.51281,0.02,Ca0.98Bi0.02Mn0.98Nb0.02O3,Ca1-xBixMn1-yNbyO3,,CaMnO3,,,4.92E+01,,1.48E-02,Solid state reaction,polycrystalline,Park2009JAC,http://dx.doi.org/10.1016/j.jallcom.2009.08.012,x=y,Extrapolated from 325 K,206.97,4,5,20,10.3485,Poeppelmeier,http://dx.doi.org/10.1016/0022-4596(82)90292-4,35218,300,1.00E+04,0.0143318,62,8
400,,0.0215372,-119.21,2.64E-02,1,0.021537,-119.21,6.60E-05,0.0116031,2.27454,0.02,Ca0.98Bi0.02Mn0.98Nb0.02O3,Ca1-xBixMn1-yNbyO3,,CaMnO3,,,4.64E+01,,2.64E-02,Solid state reaction,polycrystalline,Park2009JAC,http://dx.doi.org/10.1016/j.jallcom.2009.08.012,x=y,,206.97,4,5,20,10.3485,Poeppelmeier,http://dx.doi.org/10.1016/0022-4596(82)90292-4,35218,300,1.42E+04,0.0199235,62,8
700,,0.0259143,-184.31,9.18E-02,1,0.021537,-119.21,1.31E-04,0.0488456,1.87848,0.02,Ca0.98Bi0.02Mn0.98Nb0.02O3,Ca1-xBixMn1-yNbyO3,,CaMnO3,,,3.86E+01,,9.18E-02,Solid state reaction,polycrystalline,Park2009JAC,http://dx.doi.org/10.1016/j.jallcom.2009.08.012,x=y,,206.97,4,5,20,10.3485,Poeppelmeier,http://dx.doi.org/10.1016/0022-4596(82)90292-4,35218,300,3.40E+04,0.0350866,62,8
1000,,0.0266379,-205.16,1.58E-01,1,0.021537,-119.21,1.58E-04,0.0910244,1.73598,0.02,Ca0.98Bi0.02Mn0.98Nb0.02O3,Ca1-xBixMn1-yNbyO3,,CaMnO3,,,3.75E+01,,1.58E-01,Solid state reaction,polycrystalline,Park2009JAC,http://dx.doi.org/10.1016/j.jallcom.2009.08.012,x=y,Extrapolated from 972 K,206.97,4,5,20,10.3485,Poeppelmeier,http://dx.doi.org/10.1016/0022-4596(82)90292-4,35218,300,4.21E+04,0.0527649,62,8
300,,0.008864209,-91.19,2.81E-02,1,0.009824,-114.15,9.38E-05,0.0124103,2.2675,0.04,Ca0.96Bi0.04Mn0.96Nb0.04O3,Ca1-xBixMn1-yNbyO3,,CaMnO3,,,1.13E+02,,2.81E-02,Solid state reaction,polycrystalline,Park2009JAC,http://dx.doi.org/10.1016/j.jallcom.2009.08.012,x=y,Extrapolated from 325 K,206.97,4,5,20,10.3485,Poeppelmeier,http://dx.doi.org/10.1016/0022-4596(82)90292-4,35218,300,8.31E+03,0.0364186,62,8
400,,0.009823585,-114.15,5.31E-02,1,0.009824,-114.15,1.33E-04,0.0245637,2.16005,0.04,Ca0.96Bi0.04Mn0.96Nb0.04O3,Ca1-xBixMn1-yNbyO3,,CaMnO3,,,1.02E+02,,5.31E-02,Solid state reaction,polycrystalline,Park2009JAC,http://dx.doi.org/10.1016/j.jallcom.2009.08.012,x=y,,206.97,4,5,20,10.3485,Poeppelmeier,http://dx.doi.org/10.1016/0022-4596(82)90292-4,35218,300,1.30E+04,0.0459956,62,8
700,,0.012502,-164.08,1.51E-01,1,0.009824,-114.15,2.15E-04,0.080247,1.8785,0.04,Ca0.96Bi0.04Mn0.96Nb0.04O3,Ca1-xBixMn1-yNbyO3,,CaMnO3,,,8.00E+01,,1.51E-01,Solid state reaction,polycrystalline,Park2009JAC,http://dx.doi.org/10.1016/j.jallcom.2009.08.012,x=y,,206.97,4,5,20,10.3485,Poeppelmeier,http://dx.doi.org/10.1016/0022-4596(82)90292-4,35218,300,2.69E+04,0.0727272,62,8
1000,,0.0145455,-172.3,2.04E-01,1,0.009824,-114.15,2.04E-04,0.120992,1.6869,0.1,Ca0.9Bi0.1Mn0.9Nb0.1O3,Ca1-xBixMn1-yNbyO3,,CaMnO3,,,6.88E+01,,2.04E-01,Solid state reaction,polycrystalline,Park2009JAC,http://dx.doi.org/10.1016/j.jallcom.2009.08.012,x=y,Extrapolated from 972 K,206.97,4,5,20,10.3485,Poeppelmeier,http://dx.doi.org/10.1016/0022-4596(82)90292-4,35218,300,2.97E+04,0.0994421,62,8
300,,0.007325377,-72.23,2.14E-02,1,0.007258,-72.44,7.12E-05,,,0.1,Ca0.9Bi0.1Mn0.9Nb0.1O3,Ca1-xBixMn1-yNbyO3,,CaMnO3,,,1.37E+02,,2.14E-02,Solid state reaction,polycrystalline,Park2009JAC,http://dx.doi.org/10.1016/j.jallcom.2009.08.012,x=y,Extrapolated from 325 K,206.97,4,5,20,10.3485,Poeppelmeier,http://dx.doi.org/10.1016/0022-4596(82)90292-4,35218,300,5.22E+03,,62,8
400,,0.007257717,-72.44,2.89E-02,1,0.007258,-72.44,7.23E-05,,,0.1,Ca0.9Bi0.1Mn0.9Nb0.1O3,Ca1-xBixMn1-yNbyO3,,CaMnO3,,,1.38E+02,,2.89E-02,Solid state reaction,polycrystalline,Park2009JAC,http://dx.doi.org/10.1016/j.jallcom.2009.08.012,x=y,,206.97,4,5,20,10.3485,Poeppelmeier,http://dx.doi.org/10.1016/0022-4596(82)90292-4,35218,300,5.25E+03,,62,8
700,,0.007633259,-80.65,5.97E-02,1,0.007258,-72.44,8.52E-05,,,0.1,Ca0.9Bi0.1Mn0.9Nb0.1O3,Ca1-xBixMn1-yNbyO3,,CaMnO3,,,1.31E+02,,5.97E-02,Solid state reaction,polycrystalline,Park2009JAC,http://dx.doi.org/10.1016/j.jallcom.2009.08.012,x=y,,206.97,4,5,20,10.3485,Poeppelmeier,http://dx.doi.org/10.1016/0022-4596(82)90292-4,35218,300,6.50E+03,,62,8
1000,,0.008303286,-92.67,1.03E-01,1,0.007258,-72.44,1.03E-04,,,0.1,Ca0.9Bi0.1Mn0.9Nb0.1O3,Ca1-xBixMn1-yNbyO3,,CaMnO3,,,1.20E+02,,1.03E-01,Solid state reaction,polycrystalline,Park2009JAC,http://dx.doi.org/10.1016/j.jallcom.2009.08.012,x=y,Extrapolated from 972 K,206.97,4,5,20,10.3485,Poeppelmeier,http://dx.doi.org/10.1016/0022-4596(82)90292-4,35218,300,8.59E+03,,62,8
300,,0.02,-180,4.86E-02,1,0.0215409,-203.88,1.62E-04,0.01944,2.5,0.02,CaMn0.98Nb0.02O3,CaMn1-xNbxO3,,CaMnO3,,,5.00E+01,,4.86E-02,Ultrasonic Spray Pyrolysis,polycrystalline,Populoh2011JMR,http://dx.doi.org/10.1557/jmr.2011.140,<200 nm crystal size,,208.21,4,5,20,10.4105,Bocher,http://dx.doi.org/10.1016/j.actamat.2009.07.062,166044,298,3.24E+04,0.01464,62,8
400,,0.0215409,-203.88,7.72E-02,1,0.021541,-203.88,1.93E-04,0.03719487,2.07513,0.02,CaMn0.98Nb0.02O3,CaMn1-xNbxO3,,CaMnO3,,,4.64E+01,,7.72E-02,Ultrasonic Spray Pyrolysis,polycrystalline,Populoh2011JMR,http://dx.doi.org/10.1557/jmr.2011.140,<200 nm crystal size,,208.21,4,5,20,10.4105,Bocher,http://dx.doi.org/10.1016/j.actamat.2009.07.062,166044,298,4.16E+04,0.02183437,62,8
700,,0.028358,-234.57,1.36E-01,1,0.021541,-203.88,1.94E-04,0.0832934,1.63069,0.02,CaMn0.98Nb0.02O3,CaMn1-xNbxO3,,CaMnO3,,,3.53E+01,,1.36E-01,Ultrasonic Spray Pyrolysis,polycrystalline,Populoh2011JMR,http://dx.doi.org/10.1557/jmr.2011.140,<200 nm crystal size,,208.21,4,5,20,10.4105,Bocher,http://dx.doi.org/10.1016/j.actamat.2009.07.062,166044,298,5.50E+04,0.0369352,62,8
1000,,0.0308794,-248.22,2.00E-01,1,0.021541,-203.88,2.00E-04,0.144504,1.38075,0.02,CaMn0.98Nb0.02O3,CaMn1-xNbxO3,,CaMnO3,,,3.24E+01,,2.00E-01,Ultrasonic Spray Pyrolysis,polycrystalline,Populoh2011JMR,http://dx.doi.org/10.1557/jmr.2011.140,<200 nm crystal size,,208.21,4,5,20,10.4105,Bocher,http://dx.doi.org/10.1016/j.actamat.2009.07.062,166044,298,6.16E+04,0.0572277,62,8
400,,0.0183658,-153.66,5.14E-02,1,0.01837,-153.66,1.29E-04,,,0.02,CaMn0.98Ru0.02O3,CaMn1-xRuxO3,,CaMnO3,,,5.44E+01,,5.14E-02,Solid state reaction,polycrystalline,Zhou2003MRB,http://dx.doi.org/10.1016/S0025-5408(02)00997-2,"Ru content dampens Seebeck (bad), but increases conductivity (good)",Seebeck extrapolated from 500 K,208.21,4,5,20,10.4105,Bocher,http://dx.doi.org/10.1016/j.actamat.2009.07.062,166044,298,2.36E+04,,62,8
700,,0.0241829,-195.78,1.11E-01,1,0.018366,-153.66,1.59E-04,,,0.02,CaMn0.98Ru0.02O3,CaMn1-xRuxO3,,CaMnO3,,,4.14E+01,,1.11E-01,Solid state reaction,polycrystalline,Zhou2003MRB,http://dx.doi.org/10.1016/S0025-5408(02)00997-2,"Ru content dampens Seebeck (bad), but increases conductivity (good)",,208.21,4,5,20,10.4105,Bocher,http://dx.doi.org/10.1016/j.actamat.2009.07.062,166044,298,3.83E+04,,62,8
1000,,0.0279999,-213.72,1.63E-01,1,0.018366,-153.66,1.63E-04,,,0.02,CaMn0.98Ru0.02O3,CaMn1-xRuxO3,,CaMnO3,,,3.57E+01,,1.63E-01,Solid state reaction,polycrystalline,Zhou2003MRB,http://dx.doi.org/10.1016/S0025-5408(02)00997-2,"Ru content dampens Seebeck (bad), but increases conductivity (good)",,208.21,4,5,20,10.4105,Bocher,http://dx.doi.org/10.1016/j.actamat.2009.07.062,166044,298,4.57E+04,,62,8
400,,0.00752127,-119.99,7.66E-02,1,0.007521,-119.99,1.91E-04,0.0203743,3.75786,0.04,CaMn0.96Ru0.04O3,CaMn1-xRuxO3,,CaMnO3,,,1.33E+02,,7.66E-02,Solid state reaction,polycrystalline,Zhou2003MRB,http://dx.doi.org/10.1016/S0025-5408(02)00997-2,"Ru content dampens Seebeck (bad), but increases conductivity (good)",,208.21,4,5,20,10.4105,Bocher,http://dx.doi.org/10.1016/j.actamat.2009.07.062,166044,298,1.44E+04,0.0345317,62,8
700,,0.0101835,-137.22,1.29E-01,1,0.007521,-119.99,1.85E-04,0.0399492,3.23973,0.04,CaMn0.96Ru0.04O3,CaMn1-xRuxO3,,CaMnO3,,,9.82E+01,,1.29E-01,Solid state reaction,polycrystalline,Zhou2003MRB,http://dx.doi.org/10.1016/S0025-5408(02)00997-2,"Ru content dampens Seebeck (bad), but increases conductivity (good)",,208.21,4,5,20,10.4105,Bocher,http://dx.doi.org/10.1016/j.actamat.2009.07.062,166044,298,1.88E+04,0.0517705,62,8
1000,,0.0126982,-152.89,1.84E-01,1,0.007521,-119.99,1.84E-04,0.0638831,2.88165,0.04,CaMn0.96Ru0.04O3,CaMn1-xRuxO3,,CaMnO3,,,7.88E+01,,1.84E-01,Solid state reaction,polycrystalline,Zhou2003MRB,http://dx.doi.org/10.1016/S0025-5408(02)00997-2,"Ru content dampens Seebeck (bad), but increases conductivity (good)",,208.21,4,5,20,10.4105,Bocher,http://dx.doi.org/10.1016/j.actamat.2009.07.062,166044,298,2.34E+04,0.0666817,62,8
400,,0.00660169,-101.6,6.25E-02,1,0.006602,-101.6,1.56E-04,,,0.06,CaMn0.94Ru0.06O3,CaMn1-xRuxO3,,CaMnO3,,,1.51E+02,,6.25E-02,Solid state reaction,polycrystalline,Zhou2003MRB,http://dx.doi.org/10.1016/S0025-5408(02)00997-2,"Ru content dampens Seebeck (bad), but increases conductivity (good)",,208.21,4,5,20,10.4105,Bocher,http://dx.doi.org/10.1016/j.actamat.2009.07.062,166044,298,1.03E+04,,62,8
700,,0.00892335,-122.22,1.17E-01,1,0.006602,-101.6,1.67E-04,,,0.06,CaMn0.94Ru0.06O3,CaMn1-xRuxO3,,CaMnO3,,,1.12E+02,,1.17E-01,Solid state reaction,polycrystalline,Zhou2003MRB,http://dx.doi.org/10.1016/S0025-5408(02)00997-2,"Ru content dampens Seebeck (bad), but increases conductivity (good)",,208.21,4,5,20,10.4105,Bocher,http://dx.doi.org/10.1016/j.actamat.2009.07.062,166044,298,1.49E+04,,62,8
1000,,0.0113926,-144.55,1.83E-01,1,0.006602,-101.6,1.83E-04,,,0.06,CaMn0.94Ru0.06O3,CaMn1-xRuxO3,,CaMnO3,,,8.78E+01,,1.83E-01,Solid state reaction,polycrystalline,Zhou2003MRB,http://dx.doi.org/10.1016/S0025-5408(02)00997-2,"Ru content dampens Seebeck (bad), but increases conductivity (good)",,208.21,4,5,20,10.4105,Bocher,http://dx.doi.org/10.1016/j.actamat.2009.07.062,166044,298,2.09E+04,,62,8
400,,0.00395648,-60.57,3.71E-02,1,0.003956,-60.57,9.27E-05,,,0.1,CaMn0.9Ru0.1O3,CaMn1-xRuxO3,,CaMnO3,,,2.53E+02,,3.71E-02,Solid state reaction,polycrystalline,Zhou2003MRB,http://dx.doi.org/10.1016/S0025-5408(02)00997-2,"Ru content dampens Seebeck (bad), but increases conductivity (good)",,210.36,4,5,20,10.518,Zhou,http://dx.doi.org/10.1021/cm9007238,165698,293,3.67E+03,,62,8
700,,0.00529042,-81.62,8.81E-02,1,0.003956,-60.57,1.26E-04,,,0.1,CaMn0.9Ru0.1O3,CaMn1-xRuxO3,,CaMnO3,,,1.89E+02,,8.81E-02,Solid state reaction,polycrystalline,Zhou2003MRB,http://dx.doi.org/10.1016/S0025-5408(02)00997-2,"Ru content dampens Seebeck (bad), but increases conductivity (good)",,210.36,4,5,20,10.518,Zhou,http://dx.doi.org/10.1021/cm9007238,165698,293,6.66E+03,,62,8
1000,,0.00673792,-101.82,1.54E-01,1,0.003956,-60.57,1.54E-04,,,0.1,CaMn0.9Ru0.1O3,CaMn1-xRuxO3,,CaMnO3,,,1.48E+02,,1.54E-01,Solid state reaction,polycrystalline,Zhou2003MRB,http://dx.doi.org/10.1016/S0025-5408(02)00997-2,"Ru content dampens Seebeck (bad), but increases conductivity (good)",,210.36,4,5,20,10.518,Zhou,http://dx.doi.org/10.1021/cm9007238,165698,293,1.04E+04,,62,8
400,,0.00310502,-35.67,1.64E-02,1,0.003105,-35.67,4.10E-05,,,0.18,CaMn0.82Ru0.18O3,CaMn1-xRuxO3,,CaMnO3,,,3.22E+02,,1.64E-02,Solid state reaction,polycrystalline,Zhou2003MRB,http://dx.doi.org/10.1016/S0025-5408(02)00997-2,"Ru content dampens Seebeck (bad), but increases conductivity (good)",,210.36,4,5,20,10.518,Zhou,http://dx.doi.org/10.1021/cm9007238,165698,293,1.27E+03,,62,8
700,,0.00403027,-55.87,5.42E-02,1,0.003105,-35.67,7.75E-05,,,0.18,CaMn0.82Ru0.18O3,CaMn1-xRuxO3,,CaMnO3,,,2.48E+02,,5.42E-02,Solid state reaction,polycrystalline,Zhou2003MRB,http://dx.doi.org/10.1016/S0025-5408(02)00997-2,"Ru content dampens Seebeck (bad), but increases conductivity (good)",,210.36,4,5,20,10.518,Zhou,http://dx.doi.org/10.1021/cm9007238,165698,293,3.12E+03,,62,8
1000,,0.00504634,-67.87,9.13E-02,1,0.003105,-35.67,9.13E-05,,,0.18,CaMn0.82Ru0.18O3,CaMn1-xRuxO3,,CaMnO3,,,1.98E+02,,9.13E-02,Solid state reaction,polycrystalline,Zhou2003MRB,http://dx.doi.org/10.1016/S0025-5408(02)00997-2,"Ru content dampens Seebeck (bad), but increases conductivity (good)",,210.36,4,5,20,10.518,Zhou,http://dx.doi.org/10.1021/cm9007238,165698,293,4.61E+03,,62,8
300,,0.03054545,-211.97,4.41E-02,1,0.027541,-215.39,1.47E-04,,,0.02,CaGd0.98Mn0.02O3,Ca1-xGdxMnO3,,CaMnO3,,,3.27E+01,,4.41E-02,Co-precipitation,polycrystalline,Lan2010JACS,http://dx.doi.org/10.1111/j.1551-2916.2010.03673.x,50-70nm crystal size,Extrapolated from 323 K,210.36,4,5,20,10.518,Zhou,http://dx.doi.org/10.1021/cm9007238,165698,293,4.49E+04,,62,8
400,,0.027541,-215.39,6.74E-02,1,0.027541,-215.39,1.68E-04,,,0.02,CaGd0.98Mn0.02O3,Ca1-xGdxMnO3,,CaMnO3,,,3.63E+01,,6.74E-02,Co-precipitation,polycrystalline,Lan2010JACS,http://dx.doi.org/10.1111/j.1551-2916.2010.03673.x,50-70nm crystal size,,210.36,4,5,20,10.518,Zhou,http://dx.doi.org/10.1021/cm9007238,165698,293,4.64E+04,,62,8
700,,0.0221053,-227.92,1.65E-01,1,0.027541,-215.39,2.35E-04,,,0.02,CaGd0.98Mn0.02O3,Ca1-xGdxMnO3,,CaMnO3,,,4.52E+01,,1.65E-01,Co-precipitation,polycrystalline,Lan2010JACS,http://dx.doi.org/10.1111/j.1551-2916.2010.03673.x,50-70nm crystal size,,210.36,4,5,20,10.518,Zhou,http://dx.doi.org/10.1021/cm9007238,165698,293,5.19E+04,,62,8
1000,,0.0227027,-235.33,2.44E-01,1,0.027541,-215.39,2.44E-04,,,0.02,CaGd0.98Mn0.02O3,Ca1-xGdxMnO3,,CaMnO3,,,4.40E+01,,2.44E-01,Co-precipitation,polycrystalline,Lan2010JACS,http://dx.doi.org/10.1111/j.1551-2916.2010.03673.x,50-70nm crystal size,Extrapolated from 926 K,210.36,4,5,20,10.518,Zhou,http://dx.doi.org/10.1021/cm9007238,165698,293,5.54E+04,,62,8
300,,0.0148673,-162.39,5.32E-02,1,0.012874,-163.53,1.77E-04,0.0297863,1.78652,0.04,CaGd0.96Mn0.04O3,Ca1-xGdxMnO3,,CaMnO3,,,6.73E+01,,5.32E-02,Co-precipitation,polycrystalline,Lan2010JACS,http://dx.doi.org/10.1111/j.1551-2916.2010.03673.x,50-70nm crystal size,Extrapolated from 323 K,210.36,4,5,20,10.518,Zhou,http://dx.doi.org/10.1021/cm9007238,165698,293,2.64E+04,0.0275596,62,8
400,,0.0128736,-163.53,8.31E-02,1,0.012874,-163.53,2.08E-04,0.0514549,1.6149,0.04,CaGd0.96Mn0.04O3,Ca1-xGdxMnO3,,CaMnO3,,,7.77E+01,,8.31E-02,Co-precipitation,polycrystalline,Lan2010JACS,http://dx.doi.org/10.1111/j.1551-2916.2010.03673.x,50-70nm crystal size,,210.36,4,5,20,10.518,Zhou,http://dx.doi.org/10.1021/cm9007238,165698,293,2.67E+04,0.0469468,62,8
700,,0.0116667,-172.65,1.79E-01,1,0.012874,-163.53,2.56E-04,0.132836,1.34638,0.04,CaGd0.96Mn0.04O3,Ca1-xGdxMnO3,,CaMnO3,,,8.57E+01,,1.79E-01,Co-precipitation,polycrystalline,Lan2010JACS,http://dx.doi.org/10.1111/j.1551-2916.2010.03673.x,50-70nm crystal size,,210.36,4,5,20,10.518,Zhou,http://dx.doi.org/10.1021/cm9007238,165698,293,2.98E+04,0.108736,62,8
1000,,0.010566,-172.65,2.82E-01,1,0.012874,-163.53,2.82E-04,0.220343,1.28033,0.04,CaGd0.96Mn0.04O3,Ca1-xGdxMnO3,,CaMnO3,,,9.46E+01,,2.82E-01,Co-precipitation,polycrystalline,Lan2010JACS,http://dx.doi.org/10.1111/j.1551-2916.2010.03673.x,50-70nm crystal size,Extrapolated from 926 K,210.36,4,5,20,10.518,Zhou,http://dx.doi.org/10.1021/cm9007238,165698,293,2.98E+04,0.180367,62,8
300,,0.0145455,-104.27,2.24E-02,1,0.0113514,-118.52,7.48E-05,0.00787002,2.84951,0.06,CaGd0.94Mn0.06O3,Ca1-xGdxMnO3,,CaMnO3,,,6.88E+01,,2.24E-02,Co-precipitation,polycrystalline,Lan2010JACS,http://dx.doi.org/10.1111/j.1551-2916.2010.03673.x,50-70nm crystal size,Extrapolated from 323 K,210.36,4,5,20,10.518,Zhou,http://dx.doi.org/10.1021/cm9007238,165698,293,1.09E+04,0.0176609,62,8
400,,0.0113514,-118.52,4.95E-02,1,0.0113514,-118.52,1.24E-04,0.0192607,2.5699,0.06,CaGd0.94Mn0.06O3,Ca1-xGdxMnO3,,CaMnO3,,,8.81E+01,,4.95E-02,Co-precipitation,polycrystalline,Lan2010JACS,http://dx.doi.org/10.1111/j.1551-2916.2010.03673.x,50-70nm crystal size,,210.36,4,5,20,10.518,Zhou,http://dx.doi.org/10.1021/cm9007238,165698,293,1.40E+04,0.0334569,62,8
700,,0.008659808,-144.73,1.69E-01,1,0.0113514,-118.52,2.42E-04,0.0791423,2.1394,0.06,CaGd0.94Mn0.06O3,Ca1-xGdxMnO3,,CaMnO3,,,1.15E+02,,1.69E-01,Co-precipitation,polycrystalline,Lan2010JACS,http://dx.doi.org/10.1111/j.1551-2916.2010.03673.x,50-70nm crystal size,,210.36,4,5,20,10.518,Zhou,http://dx.doi.org/10.1021/cm9007238,165698,293,2.09E+04,0.0921908,62,8
1000,,0.008865405,-144.73,2.36E-01,1,0.0113514,-118.52,2.36E-04,0.121469,1.94512,0.06,CaGd0.94Mn0.06O3,Ca1-xGdxMnO3,,CaMnO3,,,1.13E+02,,2.36E-01,Co-precipitation,polycrystalline,Lan2010JACS,http://dx.doi.org/10.1111/j.1551-2916.2010.03673.x,50-70nm crystal size,Extrapolated from 926 K,210.36,4,5,20,10.518,Zhou,http://dx.doi.org/10.1021/cm9007238,165698,293,2.09E+04,0.141496,62,8
400,,0.00175816,23.09,1.21E-02,4,0.001177,23.09,3.03E-05,,,0.6,Nd1.4Bi0.6Ru2O7,Nd2-xBixRu2O7,,A2Ru2O7,,,5.69E+02,,1.21E-02,Solid state reaction,polycrystalline,Zhou2001ML,http://dx.doi.org/10.1016/S0167-577X(01)00317-2,,,1102.66,8,11,88,12.5302,Yamamoto,http://dx.doi.org/10.1006/jssc.1994.1116,78129,300,5.33E+02,,227,192
700,,0.00192802,32.45,3.82E-02,4,0.001177,23.09,5.46E-05,,,0.6,Nd1.4Bi0.6Ru2O7,Nd2-xBixRu2O7,,A2Ru2O7,,,5.19E+02,,3.82E-02,Solid state reaction,polycrystalline,Zhou2001ML,http://dx.doi.org/10.1016/S0167-577X(01)00317-2,,,1102.66,8,11,88,12.5302,Yamamoto,http://dx.doi.org/10.1006/jssc.1994.1116,78129,300,1.05E+03,,227,192
1000,,0.00203743,39.96,7.84E-02,4,0.001177,23.09,7.84E-05,,,0.6,Nd1.4Bi0.6Ru2O7,Nd2-xBixRu2O7,,A2Ru2O7,,,4.91E+02,,7.84E-02,Solid state reaction,polycrystalline,Zhou2001ML,http://dx.doi.org/10.1016/S0167-577X(01)00317-2,,,1102.66,8,11,88,12.5302,Yamamoto,http://dx.doi.org/10.1006/jssc.1994.1116,78129,300,1.60E+03,,227,192
400,,0.00117083,21.17,1.53E-02,4,0.001759,21.17,3.83E-05,,,1,NdBiRu2O7,Nd2-xBixRu2O7,,A2Ru2O7,,,8.54E+02,,1.53E-02,Solid state reaction,polycrystalline,Zhou2001ML,http://dx.doi.org/10.1016/S0167-577X(01)00317-2,,,1098.72,8,11,88,12.4855,Yamamoto,http://dx.doi.org/10.1006/jssc.1994.1116,78127,300,4.48E+02,,227,192
700,,0.00134069,30.25,4.78E-02,4,0.001759,21.17,6.83E-05,,,1,NdBiRu2O7,Nd2-xBixRu2O7,,A2Ru2O7,,,7.46E+02,,4.78E-02,Solid state reaction,polycrystalline,Zhou2001ML,http://dx.doi.org/10.1016/S0167-577X(01)00317-2,,,1098.72,8,11,88,12.4855,Yamamoto,http://dx.doi.org/10.1006/jssc.1994.1116,78127,300,9.15E+02,,227,192
1000,,0.00153071,35.44,8.21E-02,4,0.001759,21.17,8.21E-05,,,1,NdBiRu2O7,Nd2-xBixRu2O7,,A2Ru2O7,,,6.53E+02,,8.21E-02,Solid state reaction,polycrystalline,Zhou2001ML,http://dx.doi.org/10.1016/S0167-577X(01)00317-2,,,1098.72,8,11,88,12.4855,Yamamoto,http://dx.doi.org/10.1006/jssc.1994.1116,78127,300,1.26E+03,,227,192
400,,0.00321831,17.72,3.90E-03,4,0.003218,17.72,9.75E-06,,,0.6,Yb1.4Bi0.6Ru2O7,Yb2-xBixRu2O7,,A2Ru2O7,,,3.11E+02,,3.90E-03,Solid state reaction,polycrystalline,Zhou2001ML,http://dx.doi.org/10.1016/S0167-577X(01)00317-2,,,1098.72,8,11,88,12.4855,Yamamoto,http://dx.doi.org/10.1006/jssc.1994.1116,78127,300,3.14E+02,,227,192
700,,0.00310001,29.32,1.94E-02,4,0.003218,17.72,2.77E-05,,,0.6,Yb1.4Bi0.6Ru2O7,Yb2-xBixRu2O7,,A2Ru2O7,,,3.23E+02,,1.94E-02,Solid state reaction,polycrystalline,Zhou2001ML,http://dx.doi.org/10.1016/S0167-577X(01)00317-2,,,1098.72,8,11,88,12.4855,Yamamoto,http://dx.doi.org/10.1006/jssc.1994.1116,78127,300,8.60E+02,,227,192
1000,,0.00297746,38.96,5.10E-02,4,0.003218,17.72,5.10E-05,,,0.6,Yb1.4Bi0.6Ru2O7,Yb2-xBixRu2O7,,A2Ru2O7,,,3.36E+02,,5.10E-02,Solid state reaction,polycrystalline,Zhou2001ML,http://dx.doi.org/10.1016/S0167-577X(01)00317-2,,,1098.72,8,11,88,12.4855,Yamamoto,http://dx.doi.org/10.1006/jssc.1994.1116,78127,300,1.52E+03,,227,192
400,,0.00169298,19.3,8.80E-03,4,0.001693,19.3,2.20E-05,,,1,YbBiRu2O7,Yb2-xBixRu2O7,,A2Ru2O7,,,5.91E+02,,8.80E-03,Solid state reaction,polycrystalline,Zhou2001ML,http://dx.doi.org/10.1016/S0167-577X(01)00317-2,,,1098.72,8,11,88,12.4855,Yamamoto,http://dx.doi.org/10.1006/jssc.1994.1116,78127,300,3.72E+02,,227,192
700,,0.00176901,29.32,3.40E-02,4,0.001693,19.3,4.86E-05,,,1,YbBiRu2O7,Yb2-xBixRu2O7,,A2Ru2O7,,,5.65E+02,,3.40E-02,Solid state reaction,polycrystalline,Zhou2001ML,http://dx.doi.org/10.1016/S0167-577X(01)00317-2,,,1098.72,8,11,88,12.4855,Yamamoto,http://dx.doi.org/10.1006/jssc.1994.1116,78127,300,8.60E+02,,227,192
1000,,0.00181126,35.86,7.10E-02,4,0.001693,19.3,7.10E-05,,,1,YbBiRu2O7,Yb2-xBixRu2O7,,A2Ru2O7,,,5.52E+02,,7.10E-02,Solid state reaction,polycrystalline,Zhou2001ML,http://dx.doi.org/10.1016/S0167-577X(01)00317-2,,,1098.72,8,11,88,12.4855,Yamamoto,http://dx.doi.org/10.1006/jssc.1994.1116,78127,300,1.29E+03,,227,192
400,,0.00049075,-1.64,2.18E-04,4,0.00049075,-1.64,5.46E-07,,,2,Bi2Ru2O7,Y2-xBixRu2O7,,A2Ru2O7,,,1.88E+03,,2.18E-04,Solid state reaction,polycrystalline,Yasukawa2003SSC,http://dx.doi.org/10.1016/S0038-1098(03)00080-2,,Extrapolated from 478 K,1090.63,8,11,88,12.3935,Kanno,http://dx.doi.org/10.1006/jssc.1993.1012,73787,300,2.68E+00,,227,192
700,,0.00057405,5.38,3.52E-03,4,0.00049075,-1.64,5.03E-06,,,2,Bi2Ru2O7,Y2-xBixRu2O7,,A2Ru2O7,,,1.73E+03,,3.52E-03,Solid state reaction,polycrystalline,Yasukawa2003SSC,http://dx.doi.org/10.1016/S0038-1098(03)00080-2,,,1090.63,8,11,88,12.3935,Kanno,http://dx.doi.org/10.1006/jssc.1993.1012,73787,300,2.89E+01,,227,192
1000,,0.00068672,12.43,2.25E-02,4,0.00049075,-1.64,2.25E-05,,,2,Bi2Ru2O7,Y2-xBixRu2O7,,A2Ru2O7,,,1.43E+03,,2.25E-02,Solid state reaction,polycrystalline,Yasukawa2003SSC,http://dx.doi.org/10.1016/S0038-1098(03)00080-2,,,1090.63,8,11,88,12.3935,Kanno,http://dx.doi.org/10.1006/jssc.1993.1012,73787,300,1.55E+02,,227,192
400,,0.00101116,21.46,1.82E-02,4,0.00101116,21.46,4.55E-05,,,1.5,Y0.5Bi1.5Ru2O7,Y2-xBixRu2O7,,A2Ru2O7,,,9.69E+02,,1.82E-02,Solid state reaction,polycrystalline,Yasukawa2003SSC,http://dx.doi.org/10.1016/S0038-1098(03)00080-2,,Extrapolated from 478 K,1079.79,8,11,88,12.2703,Kanno,http://dx.doi.org/10.1006/jssc.1993.1012,73790,300,4.61E+02,,227,192
700,,0.001050437,15.29,1.56E-02,4,0.00101116,21.46,2.22E-05,,,1.5,Y0.5Bi1.5Ru2O7,Y2-xBixRu2O7,,A2Ru2O7,,,9.46E+02,,1.56E-02,Solid state reaction,polycrystalline,Yasukawa2003SSC,http://dx.doi.org/10.1016/S0038-1098(03)00080-2,,,1079.79,8,11,88,12.2703,Kanno,http://dx.doi.org/10.1006/jssc.1993.1012,73790,300,2.34E+02,,227,192
1000,,0.001190611,17.26,2.50E-02,4,0.00101116,21.46,2.50E-05,,,1.5,Y0.5Bi1.5Ru2O7,Y2-xBixRu2O7,,A2Ru2O7,,,8.30E+02,,2.50E-02,Solid state reaction,polycrystalline,Yasukawa2003SSC,http://dx.doi.org/10.1016/S0038-1098(03)00080-2,,,1079.79,8,11,88,12.2703,Kanno,http://dx.doi.org/10.1006/jssc.1993.1012,73790,300,2.98E+02,,227,192
400,,0.0019954,15.44,4.78E-03,4,0.0019954,15.44,1.20E-05,,,1,YBiRu2O7,Y2-xBixRu2O7,,A2Ru2O7,,,5.02E+02,,4.78E-03,Solid state reaction,polycrystalline,Yasukawa2003SSC,http://dx.doi.org/10.1016/S0038-1098(03)00080-2,,Extrapolated from 478 K,1069.75,8,11,88,12.15625,Kanno,http://dx.doi.org/10.1006/jssc.1993.1012,73793,300,2.38E+02,,227,192
700,,0.001901516,17.15,1.08E-02,4,0.0019954,15.44,1.55E-05,,,1,YBiRu2O7,Y2-xBixRu2O7,,A2Ru2O7,,,5.15E+02,,1.08E-02,Solid state reaction,polycrystalline,Yasukawa2003SSC,http://dx.doi.org/10.1016/S0038-1098(03)00080-2,,,1069.75,8,11,88,12.15625,Kanno,http://dx.doi.org/10.1006/jssc.1993.1012,73793,300,2.94E+02,,227,192
1000,,0.001998573,17.21,1.48E-02,4,0.0019954,15.44,1.48E-05,,,1,YBiRu2O7,Y2-xBixRu2O7,,A2Ru2O7,,,4.92E+02,,1.48E-02,Solid state reaction,polycrystalline,Yasukawa2003SSC,http://dx.doi.org/10.1016/S0038-1098(03)00080-2,,,1069.75,8,11,88,12.15625,Kanno,http://dx.doi.org/10.1006/jssc.1993.1012,73793,300,2.96E+02,,227,192
400,,5.73227,270,5.09E-04,4,5.73227,270,1.27E-06,,,2,Y2Ru2O7,Y2-xBixRu2O7,,A2Ru2O7,,,1.73E-01,,5.09E-04,Solid state reaction,polycrystalline,Yasukawa2003SSC,http://dx.doi.org/10.1016/S0038-1098(03)00080-2,,Extrapolated from 478 K,1040.8,8,11,88,11.8273,Kanno,http://dx.doi.org/10.1006/jssc.1993.1012,73799,300,7.29E+04,,227,192
700,,0.284068,21.92,1.18E-04,4,5.73227,270,1.69E-07,,,2,Y2Ru2O7,Y2-xBixRu2O7,,A2Ru2O7,,,3.46E+00,,1.18E-04,Solid state reaction,polycrystalline,Yasukawa2003SSC,http://dx.doi.org/10.1016/S0038-1098(03)00080-2,,,1040.8,8,11,88,11.8273,Kanno,http://dx.doi.org/10.1006/jssc.1993.1012,73799,300,4.80E+02,,227,192
1000,,0.0844812,17.26,3.52E-04,4,5.73227,270,3.52E-07,,,2,Y2Ru2O7,Y2-xBixRu2O7,,A2Ru2O7,,,1.16E+01,,3.52E-04,Solid state reaction,polycrystalline,Yasukawa2003SSC,http://dx.doi.org/10.1016/S0038-1098(03)00080-2,,,1040.8,8,11,88,11.8273,Kanno,http://dx.doi.org/10.1006/jssc.1993.1012,73799,300,2.98E+02,,227,192
300,,2,210,6.62E-04,4,2,40,2.21E-06,,,0,Nd2Ru2O7,Nd2Ru2O7,,A2Ru2O7,,,5.00E-01,,6.62E-04,solid state reaction,polycrystalline,Gaultois2013JPCM,,mg103,58.4% density,1104.29,8,11,88,12.54875,Yamamoto,http://dx.doi.org/10.1006/jssc.1994.1116,78133,300,4.41E+04,,227,192
400,,0.25,40,2.56E-04,4,2,40,6.40E-07,,,0,Nd2Ru2O7,Nd2Ru2O7,,A2Ru2O7,,,4.00E+00,,2.56E-04,solid state reaction,polycrystalline,Gaultois2013JPCM,,mg103,58.4% density,1104.29,8,11,88,12.54875,Yamamoto,http://dx.doi.org/10.1006/jssc.1994.1116,78133,300,1.60E+03,,227,192
700,,0.017,22.7,2.12E-03,4,2,40,3.03E-06,,,0,Nd2Ru2O7,Nd2Ru2O7,,A2Ru2O7,,,5.88E+01,,2.12E-03,solid state reaction,polycrystalline,Gaultois2013JPCM,,mg103,58.4% density,1104.29,8,11,88,12.54875,Yamamoto,http://dx.doi.org/10.1006/jssc.1994.1116,78133,300,5.15E+02,,227,192
1000,,0.0101,26.5,6.95E-03,4,2,40,6.95E-06,,,0,Nd2Ru2O7,Nd2Ru2O7,,A2Ru2O7,,,9.90E+01,,6.95E-03,solid state reaction,polycrystalline,Gaultois2013JPCM,,mg103,"58.4% density, extrapolated 860 K",1104.29,8,11,88,12.54875,Yamamoto,http://dx.doi.org/10.1006/jssc.1994.1116,78133,300,7.02E+02,,227,192
300,,1.536,173.9,5.91E-04,4,0.38,59.3,1.97E-06,,,0,Nd2Ru2O7,Nd2Ru2O7,,A2Ru2O7,,,6.51E-01,,5.91E-04,Ultrasonic spray pyrolysis,polycrystalline,Gaultois2013JPCM,,mg070,38.8% density,1104.29,8,11,88,12.54875,Yamamoto,http://dx.doi.org/10.1006/jssc.1994.1116,78133,300,3.02E+04,,227,192
400,,0.38,59.3,3.70E-04,4,0.38,59.3,9.25E-07,,,0,Nd2Ru2O7,Nd2Ru2O7,,A2Ru2O7,,,2.63E+00,,3.70E-04,Ultrasonic spray pyrolysis,polycrystalline,Gaultois2013JPCM,,mg070,38.8% density,1104.29,8,11,88,12.54875,Yamamoto,http://dx.doi.org/10.1006/jssc.1994.1116,78133,300,3.52E+03,,227,192
700,,0.031,22,1.09E-03,4,0.38,59.3,1.56E-06,,,0,Nd2Ru2O7,Nd2Ru2O7,,A2Ru2O7,,,3.23E+01,,1.09E-03,Ultrasonic spray pyrolysis,polycrystalline,Gaultois2013JPCM,,mg070,"38.8% density, extrapolated 560 K",1104.29,8,11,88,12.54875,Yamamoto,http://dx.doi.org/10.1006/jssc.1994.1116,78133,300,4.84E+02,,227,192
400,,0.011934,-90.28,2.73E-02,1,0.119152,-90.28,6.83E-05,0.01132081,2.41307,0.1,Ca0.9Nd0.1MnO3,Ca1-xNdxMnO3,,CaMnO3,,,8.38E+01,,2.73E-02,Solid state reaction,polycrystalline,Flahaut2006JAP,http://dx.doi.org/10.1063/1.23629,Seebeck enhanced w/ Temp,,210.93,4,5,20,10.5465,Wang,http://dx.doi.org/10.1021/jp809049s,164747,293,8.15E+03,0.03389174,62,8
700,,0.0174057,-123.85,6.17E-02,1,0.119152,-90.28,8.81E-05,0.02553619,2.41558,0.1,Ca0.9Nd0.1MnO3,Ca1-xNdxMnO3,,CaMnO3,,,5.75E+01,,6.17E-02,Solid state reaction,polycrystalline,Flahaut2006JAP,http://dx.doi.org/10.1063/1.23629,Seebeck enhanced w/ Temp,,210.93,4,5,20,10.5465,Wang,http://dx.doi.org/10.1021/jp809049s,164747,293,1.53E+04,0.0406233,62,8
1000,,0.0213208,-130.04,7.93E-02,1,0.119152,-90.28,7.93E-05,0.03329024,2.38232,0.1,Ca0.9Nd0.1MnO3,Ca1-xNdxMnO3,,CaMnO3,,,4.69E+01,,7.93E-02,Solid state reaction,polycrystalline,Flahaut2006JAP,http://dx.doi.org/10.1063/1.23629,Seebeck enhanced w/ Temp,,210.93,4,5,20,10.5465,Wang,http://dx.doi.org/10.1021/jp809049s,164747,293,1.69E+04,0.0480381,62,8
[...]
1000,,0.0229546,-82.67,2.98E-02,4,,,2.98E-05,0.007630344,3.902,,Nd2Cu0.98Ni0.02O4,Nd2(Cu0.98M0.02)O4,,Nd2CuO4,,,4.36E+01,,2.98E-02,"solid state reaction, air",polycrystalline,Kurosaki2003JAC,http://dx.doi.org/10.1002/chin.200318015,,*Seebeck extrapolated from 700K,189.28,2,7,14,13.52,Kaluzhskikh,http://dx.doi.org/10.1016/j.jssc.2011.01.035,261375,298,6.83E+03,0.0272416,139,32
300,,0.189785,-343.22,1.86E-02,4,,,6.21E-05,0.001088945,17.1,,Nd2Cu0.98Zn0.02O4,Nd2(Cu0.98M0.02)O4,,Nd2CuO4,,,5.27E+00,,1.86E-02,"solid state reaction, air",polycrystalline,Kurosaki2003JAC,http://dx.doi.org/10.1002/chin.200318015,,"*Seebeck extrapolated from 700K, kappa extrapolated from 850 K",189.28,2,7,14,13.52,Kaluzhskikh,http://dx.doi.org/10.1016/j.jssc.2011.01.035,261375,298,1.18E+05,0.000225555,139,32
400,,0.140548,-294.38,2.47E-02,4,,,6.17E-05,0.002221923,11.1,,Nd2Cu0.98Zn0.02O4,Nd2(Cu0.98M0.02)O4,,Nd2CuO4,,,7.12E+00,,2.47E-02,"solid state reaction, air",polycrystalline,Kurosaki2003JAC,http://dx.doi.org/10.1002/chin.200318015,,,189.28,2,7,14,13.52,Kaluzhskikh,http://dx.doi.org/10.1016/j.jssc.2011.01.035,261375,298,8.67E+04,0.000625608,139,32
700,,0.0763148,-175.63,2.83E-02,4,,,4.04E-05,0.005420334,5.22,,Nd2Cu0.98Zn0.02O4,Nd2(Cu0.98M0.02)O4,,Nd2CuO4,,,1.31E+01,,2.83E-02,"solid state reaction, air",polycrystalline,Kurosaki2003JAC,http://dx.doi.org/10.1002/chin.200318015,,,189.28,2,7,14,13.52,Kaluzhskikh,http://dx.doi.org/10.1016/j.jssc.2011.01.035,261375,298,3.08E+04,0.004287544,139,32
1000,,0.0371163,-63.68,1.09E-02,4,,,1.09E-05,0.003009932,3.63,,Nd2Cu0.98Zn0.02O4,Nd2(Cu0.98M0.02)O4,,Nd2CuO4,,,2.69E+01,,1.09E-02,"solid state reaction, air",polycrystalline,Kurosaki2003JAC,http://dx.doi.org/10.1002/chin.200318015,,*Seebeck extrapolated from 700K,189.28,2,7,14,13.52,Kaluzhskikh,http://dx.doi.org/10.1016/j.jssc.2011.01.035,261375,298,4.06E+03,0.01811,139,32
300,,0.00053,-45,1.15E-01,9,,,3.82E-04,0.0477197,2.402,Sb1,La3Te3.8Sb0.2,La3Te4-xMx,,La3Te4,,,1.89E+03,,1.15E-01,"solid state reaction, Ar",polycrystalline,May2010PRB,http://dx.doi.org/10.1103/PhysRevB.81.125205,,,893.06,4,7,28,31.895,Bucher,http://dx.doi.org/10.1103/PhysRevB.11.500,642048,300,2.03E+03,0.574993,220,48
400,,0.000589,-46.6,1.47E-01,9,,,3.69E-04,0.0571606,2.58,Sb1,La3Te3.8Sb0.2,La3Te4-xMx,,La3Te4,,,1.70E+03,,1.47E-01,"solid state reaction, Ar",polycrystalline,May2010PRB,http://dx.doi.org/10.1103/PhysRevB.81.125205,,,893.06,4,7,28,31.895,Bucher,http://dx.doi.org/10.1103/PhysRevB.11.500,642048,300,2.17E+03,0.642266,220,48
700,,0.000802,-67.6,3.99E-01,9,,,5.70E-04,0.146639,2.72,Sb1,La3Te3.8Sb0.2,La3Te4-xMx,,La3Te4,,,1.25E+03,,3.99E-01,"solid state reaction, Ar",polycrystalline,May2010PRB,http://dx.doi.org/10.1103/PhysRevB.81.125205,,,893.06,4,7,28,31.895,Bucher,http://dx.doi.org/10.1103/PhysRevB.11.500,642048,300,4.57E+03,0.782969,220,48
1000,,0.00103,-87.8,7.48E-01,9,,,7.48E-04,0.281365,2.66,Sb1,La3Te3.8Sb0.2,La3Te4-xMx,,La3Te4,,,9.71E+02,,7.48E-01,"solid state reaction, Ar",polycrystalline,May2010PRB,http://dx.doi.org/10.1103/PhysRevB.81.125205,,,893.06,4,7,28,31.895,Bucher,http://dx.doi.org/10.1103/PhysRevB.11.500,642048,300,7.71E+03,0.890576,220,48
300,,0.0011,-53,7.66E-02,9,,,2.55E-04,0.0373703,2.05,Sb2,La3Te3.65Sb0.35,La3Te4-xMx,,La3Te4,,,9.09E+02,,7.66E-02,"solid state reaction, Ar",polycrystalline,May2010PRB,http://dx.doi.org/10.1103/PhysRevB.81.125205,,,893.06,4,7,28,31.895,Bucher,http://dx.doi.org/10.1103/PhysRevB.11.500,642048,300,2.81E+03,0.324612,220,48
400,,0.00137,-58,9.82E-02,9,,,2.46E-04,0.0476791,2.06,Sb2,La3Te3.65Sb0.35,La3Te4-xMx,,La3Te4,,,7.30E+02,,9.82E-02,"solid state reaction, Ar",polycrystalline,May2010PRB,http://dx.doi.org/10.1103/PhysRevB.81.125205,,,893.06,4,7,28,31.895,Bucher,http://dx.doi.org/10.1103/PhysRevB.11.500,642048,300,3.36E+03,0.345829,220,48
700,,0.00187,-87.2,2.85E-01,9,,,4.07E-04,0.143755,1.98,Sb2,La3Te3.65Sb0.35,La3Te4-xMx,,La3Te4,,,5.35E+02,,2.85E-01,"solid state reaction, Ar",polycrystalline,May2010PRB,http://dx.doi.org/10.1103/PhysRevB.81.125205,,,893.06,4,7,28,31.895,Bucher,http://dx.doi.org/10.1103/PhysRevB.11.500,642048,300,7.60E+03,0.461297,220,48
1000,,0.00225,-117.3,6.12E-01,9,,,6.12E-04,0.330554,1.85,Sb2,La3Te3.65Sb0.35,La3Te4-xMx,,La3Te4,,,4.44E+02,,6.12E-01,"solid state reaction, Ar",polycrystalline,May2010PRB,http://dx.doi.org/10.1103/PhysRevB.81.125205,,,893.06,4,7,28,31.895,Bucher,http://dx.doi.org/10.1103/PhysRevB.11.500,642048,300,1.38E+04,0.586186,220,48
300,,0.018,-91,1.38E-02,9,,,4.60E-05,0.009388889,1.47,Sb4,La3Te3.35Sb0.65,La3Te4-xMx,,La3Te4,,,5.56E+01,,1.38E-02,"solid state reaction, Ar",polycrystalline,May2010PRB,http://dx.doi.org/10.1103/PhysRevB.81.125205,,,893.06,4,7,28,31.895,Bucher,http://dx.doi.org/10.1103/PhysRevB.11.500,642048,300,8.28E+03,0.0276644,220,48
400,,0.00135,-89.9,2.39E-01,9,,,5.99E-04,0.176079,1.36,Sb4,La3Te3.35Sb0.65,La3Te4-xMx,,La3Te4,,,7.41E+02,,2.39E-01,"solid state reaction, Ar",polycrystalline,May2010PRB,http://dx.doi.org/10.1103/PhysRevB.81.125205,,,893.06,4,7,28,31.895,Bucher,http://dx.doi.org/10.1103/PhysRevB.11.500,642048,300,8.08E+03,0.53159,220,48
700,,0.00721,-159.3,2.46E-01,9,,,3.52E-04,0.210576,1.17,Sb4,La3Te3.35Sb0.65,La3Te4-xMx,,La3Te4,,,1.39E+02,,2.46E-01,"solid state reaction, Ar",polycrystalline,May2010PRB,http://dx.doi.org/10.1103/PhysRevB.81.125205,,,893.06,4,7,28,31.895,Bucher,http://dx.doi.org/10.1103/PhysRevB.11.500,642048,300,2.54E+04,0.202473,220,48
1000,,0.00687,-221.2,7.12E-01,9,,,7.12E-04,0.7216,0.987,Sb4,La3Te3.35Sb0.65,La3Te4-xMx,,La3Te4,,,1.46E+02,,7.12E-01,"solid state reaction, Ar",polycrystalline,May2010PRB,http://dx.doi.org/10.1103/PhysRevB.81.125205,,,893.06,4,7,28,31.895,Bucher,http://dx.doi.org/10.1103/PhysRevB.11.500,642048,300,4.89E+04,0.359845,220,48
300,,0.0071,-71,2.13E-02,9,,,7.10E-05,0.0108287,1.967,Bi1,La3Te3.35Bi0.65,La3Te4-xMx,,La3Te4,,,1.41E+02,,2.13E-02,"solid state reaction, Ar",polycrystalline,May2010PRB,http://dx.doi.org/10.1103/PhysRevB.81.125205,,,893.06,4,7,28,31.895,Bucher,http://dx.doi.org/10.1103/PhysRevB.11.500,642048,300,5.04E+03,0.0524141,220,48
400,,0.00535,-69.5,3.61E-02,9,,,9.03E-05,0.0197344,1.83,Bi1,La3Te3.35Bi0.65,La3Te4-xMx,,La3Te4,,,1.87E+02,,3.61E-02,"solid state reaction, Ar",polycrystalline,May2010PRB,http://dx.doi.org/10.1103/PhysRevB.81.125205,,,893.06,4,7,28,31.895,Bucher,http://dx.doi.org/10.1103/PhysRevB.11.500,642048,300,4.83E+03,0.0996885,220,48
700,,0.00437,-130.6,2.73E-01,9,,,3.90E-04,0.175137,1.56,Bi1,La3Te3.35Bi0.65,La3Te4-xMx,,La3Te4,,,2.29E+02,,2.73E-01,"solid state reaction, Ar",polycrystalline,May2010PRB,http://dx.doi.org/10.1103/PhysRevB.81.125205,,,893.06,4,7,28,31.895,Bucher,http://dx.doi.org/10.1103/PhysRevB.11.500,642048,300,1.71E+04,0.250543,220,48
1000,,0.00527,-185.2,6.51E-01,9,,,6.51E-04,0.475063,1.37,Bi1,La3Te3.35Bi0.65,La3Te4-xMx,,La3Te4,,,1.90E+02,,6.51E-01,"solid state reaction, Ar",polycrystalline,May2010PRB,http://dx.doi.org/10.1103/PhysRevB.81.125205,,,893.06,4,7,28,31.895,Bucher,http://dx.doi.org/10.1103/PhysRevB.11.500,642048,300,3.43E+04,0.337955,220,48
300,,0.00061,-40.87,8.21E-02,9,,,2.74E-04,0.03339378,2.46,La1,La2.99Te4,La3Te4-xMx,,La3Te4,,,1.64E+03,,8.21E-02,"solid state reaction, Ar",polycrystalline,May2010PRB,http://dx.doi.org/10.1103/PhysRevB.81.125205,,*kappa extrapolated from  375 K,893.06,4,7,28,31.895,Bucher,http://dx.doi.org/10.1103/PhysRevB.11.500,642048,300,1.67E+03,0.487805,220,48
400,,0.00061,-41.6,1.13E-01,9,,,2.84E-04,0.0435621,2.605,La1,La2.99Te4,La3Te4-xMx,,La3Te4,,,1.64E+03,,1.13E-01,"solid state reaction, Ar",polycrystalline,May2010PRB,http://dx.doi.org/10.1103/PhysRevB.81.125205,,,893.06,4,7,28,31.895,Bucher,http://dx.doi.org/10.1103/PhysRevB.11.500,642048,300,1.73E+03,0.614203,220,48
700,,0.000802,-57.6,2.90E-01,9,,,4.14E-04,0.101965,2.84,La1,La2.99Te4,La3Te4-xMx,,La3Te4,,,1.25E+03,,2.90E-01,"solid state reaction, Ar",polycrystalline,May2010PRB,http://dx.doi.org/10.1103/PhysRevB.81.125205,,,893.06,4,7,28,31.895,Bucher,http://dx.doi.org/10.1103/PhysRevB.11.500,642048,300,3.32E+03,0.749886,220,48
1000,,0.000974,-74.7,5.73E-01,9,,,5.73E-04,0.199618,2.87,La1,La2.99Te4,La3Te4-xMx,,La3Te4,,,1.03E+03,,5.73E-01,"solid state reaction, Ar",polycrystalline,May2010PRB,http://dx.doi.org/10.1103/PhysRevB.81.125205,,,893.06,4,7,28,31.895,Bucher,http://dx.doi.org/10.1103/PhysRevB.11.500,642048,300,5.58E+03,0.872869,220,48
300,,0.0027,-41,1.87E-02,9,,,6.23E-05,0.0150627,1.24,La2,La2.74Te4,La3Te4-xMx,,La3Te4,,,3.70E+02,,1.87E-02,"solid state reaction, Ar",polycrystalline,May2010PRB,http://dx.doi.org/10.1103/PhysRevB.81.125205,,*kappa extrapolated from  375 K,893.06,4,7,28,31.895,Bucher,http://dx.doi.org/10.1103/PhysRevB.11.500,642048,300,1.68E+03,0.218638,220,48
400,,0.00268,-89,1.18E-01,9,,,2.96E-04,0.101046,1.17,La2,La2.74Te4,La3Te4-xMx,,La3Te4,,,3.73E+02,,1.18E-01,"solid state reaction, Ar",polycrystalline,May2010PRB,http://dx.doi.org/10.1103/PhysRevB.81.125205,,,893.06,4,7,28,31.895,Bucher,http://dx.doi.org/10.1103/PhysRevB.11.500,642048,300,7.92E+03,0.311264,220,48
700,,0.00425,-159,4.16E-01,9,,,5.95E-04,0.416393,1,La2,La2.74Te4,La3Te4-xMx,,La3Te4,,,2.35E+02,,4.16E-01,"solid state reaction, Ar",polycrystalline,May2010PRB,http://dx.doi.org/10.1103/PhysRevB.81.125205,,,893.06,4,7,28,31.895,Bucher,http://dx.doi.org/10.1103/PhysRevB.11.500,642048,300,2.53E+04,0.401882,220,48
1000,,0.00639,-215,7.23E-01,9,,,7.23E-04,0.810074,0.893,La2,La2.74Te4,La3Te4-xMx,,La3Te4,,,1.56E+02,,7.23E-01,"solid state reaction, Ar",polycrystalline,May2010PRB,http://dx.doi.org/10.1103/PhysRevB.81.125205,,,893.06,4,7,28,31.895,Bucher,http://dx.doi.org/10.1103/PhysRevB.11.500,642048,300,4.62E+04,0.4276,220,48
300,,0.296736,-210,4.46E-03,2,,,1.49E-05,0.001603781,2.78,0.0025,Zn0.9975Al0.0025O,Zn1-xAlxO,,ZnO,,,3.37E+00,,4.46E-03,"microwave solvothermal, air",polycrystalline,Jood2011NL,http://dx.doi.org/10.1021/nl202439h,,,47.62,2,2,4,11.905,Abrahams,http://dx.doi.org/10.1107/S0567740869003876,26170,295,4.41E+04,0.000887353,186,12
400,,0.194553,-220,9.95E-03,2,,,2.49E-05,0.003703402,2.687,0.0025,Zn0.9975Al0.0025O,Zn1-xAlxO,,ZnO,,,5.14E+00,,9.95E-03,"microwave solvothermal, air",polycrystalline,Jood2011NL,http://dx.doi.org/10.1021/nl202439h,,,47.62,2,2,4,11.905,Abrahams,http://dx.doi.org/10.1107/S0567740869003876,26170,295,4.84E+04,0.001867004,186,12
700,,0.0653168,-268,7.70E-02,2,,,1.10E-04,0.0337161,2.283,0.0025,Zn0.9975Al0.0025O,Zn1-xAlxO,,ZnO,,,1.53E+01,,7.70E-02,"microwave solvothermal, air",polycrystalline,Jood2011NL,http://dx.doi.org/10.1021/nl202439h,,,47.62,2,2,4,11.905,Abrahams,http://dx.doi.org/10.1107/S0567740869003876,26170,295,7.18E+04,0.011454,186,12
1000,,0.0122714,-316,8.14E-01,2,,,8.14E-04,0.42628,1.9089,0.0025,Zn0.9975Al0.0025O,Zn1-xAlxO,,ZnO,,,8.15E+01,,8.14E-01,"microwave solvothermal, air",polycrystalline,Jood2011NL,http://dx.doi.org/10.1021/nl202439h,,,47.62,2,2,4,11.905,Abrahams,http://dx.doi.org/10.1107/S0567740869003876,26170,295,9.99E+04,0.104162,186,12
300,,0.00282598,-92.4,9.06E-02,4,,,3.02E-04,0.0543701,1.667,,Sr0.61Ba0.39Nb2O6,Sr0.6Ba0.4Nb2O6,,Sr0.6Ba0.4Nb2O6,,,3.54E+02,,9.06E-02,"Czochralski method, anneal PO<sub>2</sub> 10<sup>-14</sup>",single crystal,Lee2010APL,http://dx.doi.org/10.1063/1.32916,,"*kappa from Choy 1992 polycrystalline samples used, values parallel to c axis",610.4,5,9,45,13.5644,Carrio,http://dx.doi.org/10.1590/S1516-14392002000100010,96013,300,8.54E+03,0.155384,100,8
300,,0.10502,-186,9.88E-03,4,,,3.29E-05,0.005928401,1.667,,Sr0.61Ba0.39Nb2O6,Sr0.6Ba0.4Nb2O6,,Sr0.6Ba0.4Nb2O6,,,9.52E+00,,9.88E-03,"Czochralski method, anneal PO<sub>2</sub> 10<sup>-14</sup>",single crystal,Lee2010APL,http://dx.doi.org/10.1063/1.32916,,"*kappa from Choy 1992 polycrystalline samples used, values parallel to c axis",610.4,5,9,45,13.5644,Carrio,http://dx.doi.org/10.1590/S1516-14392002000100010,96013,300,3.46E+04,0.004181206,100,8
400,,0.0146136,-194,1.03E-01,4,,,2.58E-04,0.0509854,2.0205,,Sr0.61Ba0.39Nb2O6,Sr0.6Ba0.4Nb2O6,,Sr0.6Ba0.4Nb2O6,,,6.84E+01,,1.03E-01,"Czochralski method, anneal PO<sub>2</sub> 10<sup>-14</sup>",single crystal,Lee2010APL,http://dx.doi.org/10.1063/1.32916,,"*kappa from Choy 1992 polycrystalline samples used, values parallel to c axis",610.4,5,9,45,13.5644,Carrio,http://dx.doi.org/10.1590/S1516-14392002000100010,96013,300,3.76E+04,0.0330547,100,8
700,,0.0014,-201,2.02E+00,4,,,2.89E-03,0.93017,2.1717,,Sr0.61Ba0.39Nb2O6,Sr0.6Ba0.4Nb2O6,,Sr0.6Ba0.4Nb2O6,,,7.14E+02,,2.02E+00,"Czochralski method, anneal PO<sub>2</sub> 10<sup>-14</sup>",single crystal,Lee2010APL,http://dx.doi.org/10.1063/1.32916,,"*values at 550 K, extrapolated from 516 K, values parallel to c axis",610.4,5,9,45,13.5644,Carrio,http://dx.doi.org/10.1590/S1516-14392002000100010,96013,300,4.04E+04,0.561772,100,8
300,,0.0618812,-220,2.35E-02,4,,,7.82E-05,0.0140758,1.667,,Sr0.61Ba0.39Nb2O6,Sr0.6Ba0.4Nb2O6,,Sr0.6Ba0.4Nb2O6,,,1.62E+01,,2.35E-02,"templated grain growth, air, anneal PO<sub>2</sub> 10<sup>-14</sup>",polycrystalline,Lee2011JMR,http://dx.doi.org/10.1557/jmr.2010.78,,"*kappa from Choy 1992 polycrystalline samples used, values parallel to c axis",610.4,5,9,45,13.5644,Carrio,http://dx.doi.org/10.1590/S1516-14392002000100010,96013,300,4.84E+04,0.007096053,100,8
400,,0.0162259,-220,1.19E-01,4,,,2.98E-04,0.0590526,2.0205,,Sr0.61Ba0.39Nb2O6,Sr0.6Ba0.4Nb2O6,,Sr0.6Ba0.4Nb2O6,,,6.16E+01,,1.19E-01,"templated grain growth, air, anneal PO<sub>2</sub> 10<sup>-14</sup>",polycrystalline,Lee2011JMR,http://dx.doi.org/10.1557/jmr.2010.78,,"*kappa from Choy 1992 polycrystalline samples used, values parallel to c axis",610.4,5,9,45,13.5644,Carrio,http://dx.doi.org/10.1590/S1516-14392002000100010,96013,300,4.84E+04,0.0297703,100,8
700,,0.008,-216,4.08E-01,4,,,5.83E-04,0.187982,2.1717,,Sr0.61Ba0.39Nb2O6,Sr0.6Ba0.4Nb2O6,,Sr0.6Ba0.4Nb2O6,,,1.25E+02,,4.08E-01,"templated grain growth, air, anneal PO<sub>2</sub> 10<sup>-14</sup>",polycrystalline,Lee2011JMR,http://dx.doi.org/10.1557/jmr.2010.78,,"*values at 550 K, extrapolated from 516 K, values parallel to c axis",610.4,5,9,45,13.5644,Carrio,http://dx.doi.org/10.1590/S1516-14392002000100010,96013,300,4.67E+04,0.09831008,100,8
300,,0.00114,-19,9.50E-03,4,,,3.17E-05,0.003877551,2.45,,Sr4.5Nb4.5O15.5,SrnNbnO3n+2,,SrnNbnO3n+2,,,8.77E+02,,9.50E-03,"floating zone method, Ar",single crystal,Sakai2012JACS,http://dx.doi.org/10.1111/j.1551-2916.2012.05169.x,,,735.99,2,26,52,14.1537,Schuekel,http://dx.doi.org/10.1002/zaac.19855280909,48207,300,3.61E+02,0.262084,31,4
300,,0.005,-107,6.87E-02,4,,,2.29E-04,0.0381633,1.8,,Sr1.6La0.4Nb2O7,Sr2-xLaxNb2O7,,Sr2Nb2O7,,,2.00E+02,,6.87E-02,"floating zone method, Ar",single,Sakai2012JACS,http://dx.doi.org/10.1111/j.1551-2916.2012.05169.x,,,597.36,4,11,44,13.5764,Ishizawa,http://dx.doi.org/10.1107/S0567740875006462,187,300,1.14E+04,0.0813333,36,8
300,,0.001178241,120.75,3.71E-01,10,,,1.24E-03,0.151567,2.44922,,Si0.8Ge0.2,Si(1-x)Gex,,Si,,,8.49E+02,,3.71E-01,"ball milling, hot-pressed nanopowders",polycrystalline,Joshi2008NL,http://dx.doi.org/10.1021/nl8026795,,,169.78,4,2,8,21.2225,Dismukes,http://dx.doi.org/10.1021/j100792a049,53910,300,1.46E+04,0.253658,227,192
400,,0.001291918,138.43,5.93E-01,10,,,1.48E-03,0.235493,2.51953,,Si0.8Ge0.2,Si(1-x)Gex,,Si,,,7.74E+02,,5.93E-01,"ball milling, hot-pressed nanopowders",polycrystalline,Joshi2008NL,http://dx.doi.org/10.1021/nl8026795,,,169.78,4,2,8,21.2225,Dismukes,http://dx.doi.org/10.1021/j100792a049,53910,300,1.92E+04,0.299844,227,192
700,,0.001787074,191.49,1.44E+00,10,,,2.05E-03,0.559663,2.56641,,Si0.8Ge0.2,Si(1-x)Gex,,Si,,,5.60E+02,,1.44E+00,"ball milling, hot-pressed nanopowders",polycrystalline,Joshi2008NL,http://dx.doi.org/10.1021/nl8026795,,,169.78,4,2,8,21.2225,Dismukes,http://dx.doi.org/10.1021/j100792a049,53910,300,3.67E+04,0.372408,227,192
1000,,0.002484145,231.64,2.16E+00,10,,,2.16E-03,0.845526,2.55469,,Si0.8Ge0.2,Si(1-x)Gex,,Si,,,4.03E+02,,2.16E+00,"ball milling, hot-pressed nanopowders",polycrystalline,Joshi2008NL,http://dx.doi.org/10.1021/nl8026795,,,169.78,4,2,8,21.2225,Dismukes,http://dx.doi.org/10.1021/j100792a049,53910,300,5.37E+04,0.384481,227,192
300,,0.000678887,81,2.90E-01,9,,,9.66E-04,1.02E-01,2.85E+00,,Pb0.96Sr0.4TeNa0.2,"PbTe  (4mol% SrTe, 2mol% Na)",,PbTe,,,1.47E+03,,2.90E-01,sparks plasma sintering,polycrystalline,Biswas2012N,http://dx.doi.org/10.1038/nature11439,,,269.84,4,2,8,33.73,Noda,http://dx.doi.org/10.1107/S0108270187091509,63099,298,6.56E+03,0.378328,225,192
400,,0.000844595,128,7.76E-01,9,,,1.94E-03,3.65E-01,2.13E+00,,Pb0.96Sr0.4TeNa0.2,"PbTe  (4mol% SrTe, 2mol% Na)",,PbTe,,,1.18E+03,,7.76E-01,sparks plasma sintering,polycrystalline,Biswas2012N,http://dx.doi.org/10.1038/nature11439,,,269.84,4,2,8,33.73,Noda,http://dx.doi.org/10.1107/S0108270187091509,63099,298,1.64E+04,0.543548,225,192
700,,0.002123142,239,1.88E+00,9,,,2.69E-03,1.60E+00,1.18E+00,,Pb0.96Sr0.4TeNa0.2,"PbTe  (4mol% SrTe, 2mol% Na)",,PbTe,,,4.71E+02,,1.88E+00,sparks plasma sintering,polycrystalline,Biswas2012N,http://dx.doi.org/10.1038/nature11439,,,269.84,4,2,8,33.73,Noda,http://dx.doi.org/10.1107/S0108270187091509,63099,298,5.71E+04,0.681753,225,192
1000,,0.003154574,265,2.23E+00,9,,,2.23E-03,2.27E+00,9.80E-01,,Pb0.96Sr0.4TeNa0.2,"PbTe  (4mol% SrTe, 2mol% Na)",,PbTe,,,3.17E+02,,2.23E+00,sparks plasma sintering,polycrystalline,Biswas2012N,http://dx.doi.org/10.1038/nature11439,,*data from 900K,269.84,4,2,8,33.73,Noda,http://dx.doi.org/10.1107/S0108270187091509,63099,298,7.02E+04,0.789265,225,192
300,,0.0004095,68,3.39E-01,9,,,1.13E-03,1.11E-01,3.07E+00,,Pb0.98Sr0.2TeNa0.1,"PbTe  (2 mol% SrTe, 1 mol% Na)",,PbTe,,,2.44E+03,,3.39E-01,melting,polycrystalline,Biswas2012N,http://dx.doi.org/10.1038/nature11439,,,269.84,4,2,8,33.73,Noda,http://dx.doi.org/10.1107/S0108270187091509,63099,298,4.62E+03,0.583212,225,192
400,,0.000706714,117,7.75E-01,9,,,1.94E-03,3.47E-01,2.23E+00,,Pb0.98Sr0.2TeNa0.1,"PbTe  (2 mol% SrTe, 1 mol% Na)",,PbTe,,,1.42E+03,,7.75E-01,melting,polycrystalline,Biswas2012N,http://dx.doi.org/10.1038/nature11439,,,269.84,4,2,8,33.73,Noda,http://dx.doi.org/10.1107/S0108270187091509,63099,298,1.37E+04,0.6193,225,192
700,,0.003012048,263,1.61E+00,9,,,2.30E-03,1.56E+00,1.03E+00,,Pb0.98Sr0.2TeNa0.1,"PbTe  (2 mol% SrTe, 1 mol% Na)",,PbTe,,,3.32E+02,,1.61E+00,melting,polycrystalline,Biswas2012N,http://dx.doi.org/10.1038/nature11439,,,269.84,4,2,8,33.73,Noda,http://dx.doi.org/10.1107/S0108270187091509,63099,298,6.92E+04,0.55054,225,192
300,,0.00041684,64,2.95E-01,9,,,9.83E-04,6.87E-02,4.29E+00,,Pb0.98TeNa0.2,PbTe  (2 mol% Na),,PbTe,,,2.40E+03,,2.95E-01,melting,polycrystalline,Biswas2012N,http://dx.doi.org/10.1038/nature11439,,,269.84,4,2,8,33.73,Noda,http://dx.doi.org/10.1107/S0108270187091509,63099,298,4.10E+03,0.40934,225,192
400,,0.000576037,105,7.66E-01,9,,,1.91E-03,2.41E-01,3.18E+00,,Pb0.98TeNa0.2,PbTe  (2 mol% Na),,PbTe,,,1.74E+03,,7.66E-01,melting,polycrystalline,Biswas2012N,http://dx.doi.org/10.1038/nature11439,,,269.84,4,2,8,33.73,Noda,http://dx.doi.org/10.1107/S0108270187091509,63099,298,1.10E+04,0.53281,225,192
700,,0.002252252,236,1.73E+00,9,,,2.47E-03,1.20E+00,1.44E+00,,Pb0.98TeNa0.2,PbTe  (2 mol% Na),,PbTe,,,4.44E+02,,1.73E+00,melting,polycrystalline,Biswas2012N,http://dx.doi.org/10.1038/nature11439,,,269.84,4,2,8,33.73,Noda,http://dx.doi.org/10.1107/S0108270187091509,63099,298,5.57E+04,0.526633,225,192
300,,0.003901983,-43.6474,1.46E-02,,,,4.88E-05,6.05E-03,2.42053,,W08,WO3-Nb2O5,,WO3-Nb2O5,,,2.56E+02,,1.46E-02,SPS,polycrystalline,,,,,,,,,,,,,,1.91E+03,0.0775024,,
400,,0.004308941,-58.4519,3.17E-02,,,,7.93E-05,1.32E-02,2.40517,,W08,WO3-Nb2O5,,WO3-Nb2O5,,,2.32E+02,,3.17E-02,SPS,polycrystalline,,,,,,,,,,,,,,3.42E+03,0.0941747,,
700,,0.005641709,-98.149,1.20E-01,,,,1.71E-04,5.02E-02,2.38172,,W08,WO3-Nb2O5,,WO3-Nb2O5,,,1.77E+02,,1.20E-01,SPS,polycrystalline,,,,,,,,,,,,,,9.63E+03,0.127112,,
1000,,0.007142314,-130.771,2.39E-01,,,,2.39E-04,1.00E-01,2.392238,,W08,WO3-Nb2O5,,WO3-Nb2O5,,,1.40E+02,,2.39E-01,SPS,polycrystalline,,,,,,,,,,,,,,1.71E+04,0.142806,,